aX,aY,aZ,gX,gY,gZ
0.12,0.28,20.07,-0.08,-0.02,-0.00
0.34,0.45,19.96,-0.13,-0.04,-0.01
0.66,0.76,19.67,-0.09,-0.05,0.03
0.71,0.55,19.57,0.04,-0.05,0.06
0.77,0.48,19.55,0.13,-0.02,0.08
1.05,0.03,19.76,0.16,0.01,0.10
1.40,-0.19,19.53,0.13,0.02,0.09
1.72,-0.36,19.41,0.06,0.04,0.08
2.09,-0.71,19.23,-0.00,0.08,0.07
2.58,-0.69,19.04,-0.05,0.13,0.04
3.08,-0.60,19.03,-0.08,0.18,0.01
3.67,-0.57,18.92,-0.08,0.24,0.01
4.01,-0.54,18.62,-0.03,0.31,-0.01
4.71,-0.70,18.74,0.04,0.41,-0.02
5.30,-0.91,18.88,0.13,0.49,-0.06
6.14,-1.26,19.36,0.14,0.60,-0.12
7.48,-1.27,20.60,0.02,0.69,-0.23
9.35,-0.45,22.28,-0.18,0.73,-0.34
11.62,0.67,24.00,-0.33,0.65,-0.39
13.48,1.53,25.47,-0.29,0.40,-0.32
14.64,1.46,26.13,-0.04,0.02,-0.14
14.60,0.11,26.20,0.26,-0.42,-0.07
14.69,-1.05,25.44,0.31,-0.75,-0.15
14.38,-1.76,23.90,-0.01,-0.93,-0.32
14.26,0.42,22.38,-0.56,-0.88,-0.50
12.83,2.57,21.55,-0.87,-0.81,-0.40
10.85,4.78,19.90,-0.80,-0.76,-0.13
7.99,4.86,17.83,-0.35,-0.62,0.30
5.48,1.94,18.00,0.30,-0.47,0.59
1.28,-2.13,18.77,0.45,-0.49,0.57
-2.59,-4.94,18.50,-0.22,-0.41,0.44
-6.36,-5.35,18.30,-1.29,-0.22,0.15
-9.10,-1.70,17.75,-1.95,0.08,-0.15
-10.54,2.19,16.71,-1.20,0.25,-0.27
-12.19,3.55,16.04,0.40,0.41,-0.06
-13.90,-0.23,18.23,1.88,0.44,0.04
-15.87,-3.56,18.27,2.38,0.31,-0.32
-17.32,-3.94,18.60,1.69,0.38,-0.66
-17.52,-0.52,18.28,0.46,0.57,-0.74
-17.60,2.97,18.11,-0.07,0.77,-0.65
-17.00,5.75,19.28,0.07,0.81,-0.45
-16.75,6.45,20.90,0.26,0.71,-0.07
-16.94,4.89,22.23,0.22,0.51,0.31
-17.58,3.21,22.86,-0.13,0.25,0.60
-17.33,1.26,21.83,-0.51,-0.03,0.75
-16.90,-0.14,19.77,-0.86,-0.22,0.78
-16.15,-0.33,17.92,-0.97,-0.39,0.80
-15.28,0.06,17.49,-0.79,-0.52,0.94
-14.79,-0.07,16.35,-0.30,-0.50,1.08
-13.41,-1.15,15.94,-0.00,-0.35,1.14
-12.10,-3.32,15.98,0.25,-0.29,1.10
-11.22,-3.99,15.20,0.32,-0.22,0.88
-9.28,-1.58,15.28,0.22,0.02,0.71
-6.69,1.45,16.12,0.45,0.16,0.78
-3.69,2.67,17.18,0.84,0.15,1.04
-1.97,0.25,17.82,1.31,0.12,1.24
-0.40,-2.36,17.93,1.54,0.19,1.10
1.05,-3.33,18.07,1.44,0.42,0.72
3.31,-3.00,18.74,1.22,0.67,0.35
4.98,-1.34,19.15,1.06,0.80,0.06
7.53,1.66,19.66,1.07,0.92,-0.06
10.92,4.44,20.97,1.23,1.10,0.09
13.08,4.31,22.74,1.69,1.23,0.34
14.74,2.79,24.72,2.08,1.31,0.44
16.15,0.71,26.60,2.12,1.27,0.44
17.35,-1.00,27.30,1.81,1.07,0.32
18.51,-1.52,27.60,1.33,0.80,0.20
20.00,-1.95,28.03,0.96,0.48,0.10
21.93,-1.53,28.26,0.73,0.17,0.02
23.13,-1.82,28.28,0.67,-0.13,0.05
22.94,-2.44,27.71,0.65,-0.35,0.08
22.04,-2.39,26.73,0.62,-0.51,0.08
20.81,-2.80,25.90,0.51,-0.64,0.06
19.54,-2.80,25.25,0.17,-0.81,-0.05
18.84,-1.83,24.64,-0.43,-0.99,-0.13
17.72,0.15,23.77,-1.03,-1.17,-0.13
16.09,1.90,23.08,-1.22,-1.29,-0.10
14.65,3.88,22.45,-1.10,-1.35,-0.04
12.71,3.47,22.45,-0.76,-1.40,0.14
10.53,1.44,22.34,-0.68,-1.47,0.17
7.58,0.53,20.98,-1.15,-1.45,0.15
3.31,0.87,19.02,-1.64,-1.11,0.11
1.87,3.12,20.01,-1.71,-0.65,0.21
-0.74,1.63,22.14,-1.33,-0.65,0.43
-5.31,-2.03,21.37,-1.11,-0.86,0.23
-8.08,-0.99,19.80,-1.37,-0.84,-0.08
-10.23,3.15,17.47,-1.40,-0.65,-0.07
-13.80,4.60,15.47,-0.76,-0.35,0.20
-16.69,-0.18,16.00,0.04,0.06,0.17
-17.54,-2.85,17.22,0.39,0.43,-0.62
-15.92,0.36,20.17,0.03,0.65,-1.10
-14.29,5.12,22.38,-0.28,0.55,-0.94
-14.38,6.04,21.86,-0.23,0.15,-0.48
-15.36,5.75,19.22,-0.12,-0.06,-0.26
-16.04,4.99,17.24,-0.04,0.08,-0.17
-15.81,4.77,17.08,0.02,0.31,-0.07
-15.55,4.78,17.63,-0.08,0.51,-0.03
-15.01,4.17,19.44,-0.30,0.60,0.03
-13.81,3.43,20.68,-0.53,0.41,0.05
-13.59,2.74,19.28,-0.85,0.13,0.05
-14.22,2.38,19.69,-1.08,0.29,0.04
-14.05,2.37,16.79,-0.99,-0.26,0.00
-14.46,1.19,15.18,-0.52,0.14,-0.01
-12.33,1.39,15.20,-0.08,0.29,-0.08
-10.12,-0.46,15.76,0.15,0.31,0.01
-7.42,-1.37,15.57,-0.05,0.25,-0.04
-4.04,-0.04,16.63,-0.35,0.23,0.02
-0.99,-0.05,16.51,-0.10,0.07,0.01
2.83,1.01,15.96,0.05,0.08,-0.03
6.48,1.85,16.70,0.34,0.20,0.01
10.42,1.82,18.10,0.55,0.44,0.03
13.59,1.26,21.84,0.71,0.69,0.09
15.24,-0.35,25.84,0.87,0.74,0.19
16.26,-3.69,28.96,0.98,0.44,0.17
15.95,-5.26,29.42,0.75,-0.10,0.02
15.48,-5.56,27.90,0.39,-0.65,-0.09
13.25,-4.58,24.03,0.07,-1.07,-0.29
10.72,-1.59,20.23,-0.05,-1.05,-0.41
8.10,0.16,18.11,0.29,-0.72,-0.46
6.64,1.04,18.21,0.47,-0.35,-0.44
0.18,0.54,19.72,0.10,0.06,0.00
0.28,0.86,19.91,0.09,0.07,0.03
0.27,0.73,20.02,0.15,0.06,0.06
0.21,0.38,20.00,0.19,0.05,0.06
0.22,0.24,19.86,0.18,0.05,0.04
0.20,0.37,19.72,0.15,0.08,0.03
0.28,0.60,19.92,0.12,0.11,0.02
0.50,0.76,20.24,0.14,0.10,0.03
0.49,0.63,20.41,0.16,0.07,0.04
0.41,0.43,20.31,0.18,0.04,0.04
0.35,0.34,20.13,0.17,0.04,0.01
0.39,0.49,20.00,0.18,0.06,-0.00
0.63,0.66,19.95,0.20,0.09,0.01
0.75,0.68,20.06,0.21,0.09,0.02
0.93,0.48,20.30,0.22,0.07,0.03
1.05,0.26,20.17,0.19,0.06,0.03
1.29,0.20,19.98,0.14,0.07,0.01
1.77,0.10,19.67,0.11,0.12,-0.01
3.06,0.01,19.46,0.14,0.20,-0.03
4.87,-0.15,19.76,0.22,0.29,-0.04
7.41,-0.62,21.02,0.23,0.35,-0.04
9.91,-1.51,22.44,0.16,0.32,-0.08
11.87,-1.59,23.11,-0.02,0.23,-0.18
13.61,0.23,22.41,-0.23,0.13,-0.27
14.68,3.30,22.67,-0.21,0.07,-0.17
15.53,5.68,23.60,0.15,-0.07,0.13
15.47,5.64,24.59,0.71,-0.37,0.43
14.24,3.33,24.91,1.10,-0.76,0.67
11.93,-0.89,23.83,1.01,-1.14,0.71
9.22,-2.14,20.33,0.02,-1.21,0.60
6.07,1.98,18.91,-1.12,-0.91,0.72
2.73,5.32,17.97,-1.35,-0.69,1.02
-1.87,6.28,17.93,-0.67,-0.56,1.28
-5.87,3.05,18.52,0.48,-0.57,1.18
-8.22,0.22,19.06,0.86,-0.51,0.86
-9.33,-1.74,20.54,0.65,-0.40,0.49
-10.02,-0.82,21.02,0.04,-0.36,0.09
-9.69,3.04,22.08,-0.38,-0.42,0.02
-11.12,4.37,21.42,-0.18,-0.61,0.25
-14.37,1.51,19.06,0.17,-0.65,0.33
-15.57,1.32,17.41,0.34,-0.41,0.13
-15.71,1.49,17.44,0.56,-0.11,0.03
-16.13,1.22,17.15,0.55,0.18,0.01
-15.41,1.18,18.10,0.26,0.43,0.05
-14.65,1.47,19.10,0.02,0.51,0.12
-13.88,0.80,19.28,-0.17,0.48,0.25
-13.65,-0.03,18.24,-0.37,0.49,0.30
-12.56,0.12,17.88,-0.40,0.68,0.22
-12.05,0.00,16.98,-0.30,0.42,0.24
-12.70,1.01,17.03,0.01,0.65,0.22
-12.14,0.60,18.16,0.26,0.80,0.26
-11.88,-0.31,19.52,0.17,0.69,0.28
-10.53,-0.97,19.99,-0.14,0.53,0.26
-11.32,-0.31,18.09,-0.36,0.57,0.15
-9.31,0.92,19.05,0.04,0.83,-0.03
-7.59,0.93,20.90,0.49,0.81,-0.15
-5.93,0.76,22.00,0.67,0.63,-0.18
-4.58,-0.23,22.03,0.55,0.42,-0.21
-4.16,-0.35,19.95,0.30,0.28,-0.48
-2.24,1.65,18.20,0.17,0.42,-0.79
-0.14,3.37,17.38,0.41,0.59,-0.92
1.09,4.09,16.97,0.78,0.76,-0.99
3.54,4.68,19.22,1.10,0.88,-0.97
5.23,4.19,21.45,1.26,0.83,-0.94
7.08,3.68,23.16,1.19,0.72,-0.98
9.20,3.10,23.81,1.00,0.55,-1.04
10.64,3.41,22.70,0.83,0.43,-1.13
13.47,4.53,21.60,0.92,0.42,-1.13
15.19,4.79,21.99,1.13,0.38,-0.96
15.84,3.91,22.73,1.17,0.34,-0.77
16.27,3.16,24.47,0.95,0.34,-0.59
16.88,2.74,26.16,0.59,0.28,-0.40
16.75,1.77,25.93,0.17,0.14,-0.20
16.51,1.13,24.47,-0.27,0.08,-0.08
16.41,1.38,22.56,-0.54,0.11,-0.01
16.38,2.21,21.77,-0.68,0.24,0.14
16.19,1.91,22.19,-0.66,0.28,0.36
15.46,1.00,23.05,-0.65,0.21,0.52
14.81,0.68,23.60,-0.79,0.15,0.67
14.56,0.19,23.96,-0.98,0.09,0.78
13.90,1.28,23.29,-1.01,-0.14,0.82
12.78,2.51,22.76,-0.71,-0.24,0.95
11.43,2.30,22.45,-0.32,-0.37,1.02
9.95,2.06,22.98,-0.17,-0.48,1.08
8.40,1.10,24.14,-0.24,-0.68,1.11
6.12,-0.62,23.76,-0.50,-0.91,1.02
3.75,-2.73,21.87,-0.91,-1.00,0.76
0.26,-3.19,18.10,-1.44,-0.83,0.34
-2.88,-1.03,14.95,-1.60,-0.39,-0.04
-5.13,2.92,14.84,-1.10,0.06,-0.14
-9.15,4.36,15.59,-0.30,0.18,-0.00
-11.07,4.95,19.06,0.37,0.05,0.13
-11.94,3.31,21.15,0.38,-0.47,0.26
-13.43,2.82,19.49,-0.28,-0.80,0.26
-13.67,3.44,17.71,-0.57,-0.82,0.14
-16.33,3.33,14.28,-0.46,-0.59,0.01
-17.31,2.98,15.77,-0.08,-0.06,-0.15
-17.18,3.45,19.02,0.25,0.02,-0.21
-17.48,4.37,20.00,0.45,-0.19,-0.07
-18.10,3.33,17.89,0.45,-0.33,0.14
-17.75,2.11,17.13,0.39,-0.25,0.18
-17.39,1.76,15.99,0.20,-0.15,0.18
-17.30,1.84,15.52,0.04,0.07,0.22
-17.13,0.92,16.05,0.09,0.36,0.20
-15.91,0.47,16.20,0.13,0.63,0.16
-15.51,1.90,17.17,0.17,0.33,0.09
-15.40,1.36,17.56,0.34,0.48,0.18
-14.33,0.57,18.03,0.29,0.42,0.13
-13.92,0.83,17.71,0.19,0.38,0.04
-12.57,0.00,18.08,0.20,0.38,-0.06
-11.21,-1.59,17.50,0.14,0.42,-0.31
-8.32,-1.46,18.40,0.04,0.53,-0.58
-3.33,-0.53,20.66,-0.05,0.42,-0.77
1.61,0.72,21.15,-0.31,0.20,-0.70
4.33,1.13,21.42,-0.25,0.17,-0.62
7.84,1.19,21.12,0.23,0.17,-0.82
10.93,2.14,20.67,0.79,0.28,-0.99
13.56,2.61,20.70,1.31,0.39,-1.12
15.99,4.79,22.06,1.52,0.47,-1.08
17.42,5.19,24.17,1.31,0.40,-0.75
5.56,0.11,19.03,-0.11,0.32,-0.27
5.88,0.43,19.23,-0.15,0.29,-0.27
6.33,0.84,19.56,-0.15,0.28,-0.24
7.23,0.71,20.13,-0.07,0.27,-0.20
8.10,0.00,20.99,-0.01,0.25,-0.23
9.57,-0.50,21.94,-0.06,0.19,-0.35
10.51,-0.60,22.51,-0.25,0.05,-0.47
10.81,-0.38,22.24,-0.44,-0.10,-0.55
10.79,0.21,22.31,-0.58,-0.19,-0.54
10.92,0.88,22.76,-0.41,-0.35,-0.46
10.48,1.36,23.63,-0.13,-0.59,-0.37
8.94,1.49,23.66,0.06,-0.83,-0.26
7.24,1.15,23.26,0.08,-0.94,-0.14
5.19,0.41,22.42,0.13,-1.08,-0.02
2.90,-0.28,19.87,-0.09,-0.99,0.06
1.17,0.34,19.52,-0.33,-0.66,0.13
-0.32,0.31,21.02,-0.26,-0.44,0.21
-2.22,-0.79,22.06,0.27,-0.53,0.14
-4.78,-2.35,22.37,0.79,-0.75,-0.14
-7.01,-2.15,20.82,0.65,-0.84,-0.36
-8.78,0.19,17.88,0.30,-0.62,-0.44
-9.84,2.79,16.89,0.37,-0.33,-0.37
-10.69,4.12,15.86,0.68,-0.08,-0.24
-11.77,5.00,15.79,0.89,0.22,0.03
-13.47,2.21,16.69,1.03,0.47,0.16
-14.45,0.58,17.81,0.84,0.68,-0.04
-13.54,1.18,19.84,0.35,0.94,-0.20
-13.16,2.44,22.11,-0.13,1.02,-0.19
-13.01,2.84,23.41,-0.49,0.99,-0.05
-13.34,1.95,23.93,-0.54,0.73,0.05
-12.82,1.54,23.10,-0.46,0.48,0.14
-13.04,0.60,21.83,-0.37,0.22,0.28
-13.30,-0.25,20.39,-0.27,0.05,0.37
-12.96,-0.32,20.00,-0.17,-0.13,0.45
-12.66,-1.43,18.29,0.01,-0.38,0.45
-12.56,-1.11,15.89,0.03,-0.40,0.35
-11.64,0.30,14.78,0.03,-0.18,0.39
-10.50,1.56,15.03,0.22,0.13,0.48
-8.50,2.04,16.73,0.51,0.31,0.64
-6.10,0.82,17.47,0.77,0.31,0.71
-3.58,0.11,17.36,0.67,0.30,0.66
-0.73,1.22,17.25,0.29,0.32,0.62
1.14,2.26,16.71,0.04,0.38,0.61
2.99,4.51,16.30,-0.06,0.54,0.65
4.86,4.81,18.10,0.08,0.88,0.94
6.37,2.56,20.46,0.59,1.05,1.09
8.29,0.30,23.09,0.87,1.04,1.12
11.13,-1.65,24.07,0.88,0.90,0.98
13.03,-2.06,23.71,0.49,0.71,0.79
14.68,-0.85,23.23,0.15,0.57,0.64
16.36,0.51,22.66,0.10,0.48,0.70
17.47,-0.59,22.96,0.42,0.60,0.88
19.08,-4.11,24.36,0.89,0.64,0.91
20.81,-7.30,25.71,0.99,0.61,0.68
22.00,-8.45,27.47,0.65,0.46,0.32
22.03,-7.20,27.75,0.16,0.10,-0.06
20.85,-5.08,26.88,-0.20,-0.31,-0.33
18.99,-2.90,25.22,-0.41,-0.73,-0.44
16.75,-1.75,22.69,-0.46,-0.95,-0.43
15.35,-1.59,20.77,-0.31,-0.97,-0.47
14.15,-1.61,20.50,-0.22,-0.93,-0.69
13.55,1.09,21.15,-0.33,-0.92,-0.85
12.72,3.71,22.39,-0.37,-1.01,-0.73
11.30,3.77,23.52,-0.27,-1.29,-0.49
10.59,2.85,23.47,-0.24,-1.66,-0.29
8.61,0.71,22.65,-0.39,-1.96,-0.20
5.61,-0.41,19.49,-0.77,-1.98,-0.25
1.30,0.31,17.04,-1.13,-1.62,-0.25
-2.56,1.50,14.69,-0.92,-0.95,-0.25
-3.57,2.95,15.81,-0.20,-0.21,-0.30
-4.43,1.66,19.29,0.55,0.19,-0.17
-6.14,-1.25,20.97,0.89,0.14,-0.19
-7.86,-2.87,21.94,0.67,-0.17,-0.31
-10.16,-2.92,19.78,-0.16,-0.44,-0.47
-11.82,-0.99,17.30,-0.71,-0.40,-0.58
-12.41,2.71,15.90,-0.64,-0.08,-0.50
-12.94,4.68,15.51,-0.02,0.31,-0.27
-13.97,4.47,16.03,0.87,0.64,-0.20
-14.48,4.16,18.18,1.65,0.90,-0.19
-14.84,2.53,20.52,1.94,0.89,-0.32
-13.81,2.45,22.19,1.41,0.79,-0.43
-12.23,3.74,24.02,0.36,0.65,-0.33
-11.03,5.63,24.17,-0.59,0.41,-0.12
-10.78,6.28,22.85,-0.88,0.23,0.21
-10.90,5.14,22.05,-0.74,0.16,0.43
-11.38,3.51,21.32,-0.55,0.11,0.51
-10.93,2.19,20.69,-0.43,0.10,0.45
-11.33,1.57,19.72,-0.44,0.12,0.39
-12.34,1.04,18.19,-0.50,0.23,0.27
-12.89,1.98,17.03,-0.52,0.44,0.13
-11.70,4.05,18.03,-0.43,0.51,0.21
-11.18,3.93,17.91,-0.35,0.35,0.45
-10.46,3.09,16.51,-0.52,0.27,0.66
-8.93,1.90,16.16,-0.73,0.31,0.81
-6.76,0.76,16.10,-0.79,0.39,0.78
-3.61,-0.40,16.01,-0.58,0.49,0.67
-1.25,-2.11,16.59,-0.31,0.58,0.49
2.40,-3.65,18.12,-0.18,0.71,0.09
6.96,-2.42,19.41,-0.07,0.62,-0.29
10.79,0.37,20.09,-0.14,0.53,-0.30
13.96,2.65,20.02,-0.10,0.46,-0.09
16.24,3.28,20.96,0.27,0.51,0.23
16.54,0.92,22.62,0.95,0.58,0.39
16.45,-2.51,24.27,1.32,0.61,0.28
15.95,-5.76,26.83,1.03,0.56,0.04
15.27,-6.27,27.23,0.29,0.29,-0.32
13.84,-3.93,25.93,-0.40,0.03,-0.58
11.14,-0.63,23.52,-0.68,-0.21,-0.68
8.53,3.30,20.90,-0.50,-0.26,-0.50
6.15,3.64,20.20,0.16,-0.17,-0.14
3.85,0.14,21.28,0.65,-0.21,-0.03
2.64,-1.93,21.87,0.39,-0.36,-0.19
1.34,-1.81,21.85,-0.38,-0.50,-0.33
-0.25,0.43,20.12,-1.00,-0.60,-0.48
-1.23,3.96,18.78,-1.06,-0.43,-0.41
-1.16,4.96,18.82,-0.42,-0.27,-0.18
-1.17,3.44,19.32,0.16,-0.14,0.07
-0.64,1.50,20.13,0.33,-0.12,0.16
-0.39,0.44,20.63,0.21,-0.20,0.17
-0.38,0.37,20.09,0.01,-0.30,0.13
6.66,-1.41,18.98,0.11,0.19,-0.11
7.66,-1.59,18.93,0.03,0.23,-0.19
8.47,-1.24,19.16,-0.02,0.32,-0.29
10.15,-0.28,19.98,-0.07,0.43,-0.41
12.00,1.00,21.55,-0.14,0.43,-0.42
12.97,1.50,23.25,-0.19,0.25,-0.31
13.19,0.73,24.13,-0.16,-0.09,-0.19
12.97,-0.54,24.32,-0.12,-0.52,-0.16
11.66,-2.29,23.12,-0.24,-0.90,-0.24
10.11,-3.06,21.63,-0.71,-1.03,-0.45
8.44,-2.07,19.09,-1.20,-1.02,-0.59
6.24,0.75,15.99,-1.55,-0.64,-0.57
4.79,3.82,14.54,-1.14,0.00,-0.20
3.35,4.61,16.21,0.03,0.48,0.27
0.96,0.66,21.15,1.26,0.53,0.60
-1.11,-3.58,24.73,1.38,0.18,0.45
-3.02,-5.40,25.42,0.48,-0.26,0.23
-6.08,-4.39,23.38,-0.82,-0.51,0.00
-8.40,-0.38,20.65,-1.50,-0.44,-0.09
-10.48,3.06,17.51,-0.94,-0.19,-0.17
-11.28,4.32,16.36,0.46,0.24,-0.04
-12.75,1.71,18.07,1.67,0.53,0.08
-14.68,-2.55,21.00,2.03,0.61,-0.16
-14.73,-2.26,22.07,1.19,0.68,-0.52
-14.29,1.30,22.85,-0.02,0.72,-0.58
-14.45,4.81,22.39,-0.61,0.65,-0.40
-14.76,6.32,22.05,-0.50,0.54,-0.15
-14.81,5.84,21.99,-0.09,0.38,0.08
-15.13,4.22,21.06,0.19,0.23,0.27
-14.90,1.97,20.70,0.14,0.18,0.40
-14.41,0.48,20.35,-0.20,0.14,0.43
-13.71,0.80,19.87,-0.53,0.09,0.46
-13.37,2.47,20.03,-0.52,0.18,0.46
-11.35,2.44,19.76,-0.16,-0.25,0.79
-11.96,0.56,18.94,0.40,-0.03,0.87
-10.80,-1.17,18.14,0.70,-0.12,0.89
-10.27,-2.26,17.10,0.78,-0.03,0.75
-7.91,-1.33,17.05,0.65,0.08,0.64
-5.92,0.03,17.03,0.47,0.14,0.68
-4.02,0.57,17.18,0.54,0.15,0.67
-1.50,1.48,17.07,0.75,0.13,0.69
0.31,1.29,16.86,0.94,0.16,0.83
0.66,-0.32,16.11,1.12,0.29,0.82
2.29,-1.30,15.72,1.27,0.55,0.54
5.08,-1.08,17.15,1.23,0.87,0.28
8.05,0.11,19.65,1.10,1.13,0.22
10.32,0.67,22.24,1.02,1.25,0.21
12.28,0.79,24.89,1.12,1.22,0.22
13.84,0.04,26.72,1.24,1.01,0.22
14.59,-1.29,27.01,1.17,0.69,0.19
14.86,-2.18,27.18,0.91,0.41,0.11
15.72,-2.10,27.12,0.57,0.18,-0.01
16.69,-1.50,26.86,0.30,-0.01,-0.09
17.49,-1.16,26.25,0.16,-0.18,-0.10
17.94,-1.42,25.31,0.10,-0.32,-0.11
17.72,-2.01,23.92,0.05,-0.43,-0.14
17.62,-2.29,22.76,-0.03,-0.52,-0.24
17.40,-2.61,22.05,-0.25,-0.65,-0.35
16.48,-2.57,20.89,-0.56,-0.82,-0.42
15.51,-1.62,19.90,-0.84,-0.93,-0.52
14.25,-0.22,18.44,-0.94,-0.96,-0.59
12.69,1.94,16.55,-0.86,-0.80,-0.59
11.69,3.88,15.74,-0.53,-0.50,-0.45
10.52,3.41,16.73,0.01,-0.20,-0.28
9.88,1.11,19.93,0.32,-0.17,-0.21
9.05,-1.22,23.14,0.07,-0.52,-0.21
7.52,-1.54,23.15,-0.69,-1.11,-0.31
4.14,1.37,19.91,-1.63,-1.37,-0.29
1.35,5.06,16.60,-1.69,-1.20,-0.03
-1.40,6.49,14.89,-0.86,-0.79,0.34
-3.11,4.64,16.29,0.29,-0.38,0.65
-4.89,-0.01,19.59,1.10,-0.24,0.66
-6.42,-3.85,22.83,0.98,-0.43,0.33
-7.37,-4.28,23.38,-0.07,-0.71,-0.05
-9.56,-1.89,20.01,-1.49,-0.73,-0.17
-11.10,2.38,16.78,-1.81,-0.27,-0.18
-11.98,5.42,16.03,-0.60,0.25,-0.07
-12.93,3.77,17.61,1.36,0.55,-0.11
-13.24,0.37,21.92,2.45,0.57,-0.37
-13.49,-2.01,23.87,1.89,0.36,-0.59
-13.38,-0.93,23.29,0.45,0.28,-0.75
-12.86,2.82,21.21,-0.81,0.28,-0.68
-12.82,5.87,20.11,-0.99,0.39,-0.49
-12.27,6.55,21.21,-0.47,0.43,-0.25
-12.57,4.40,21.72,0.11,0.29,-0.11
-12.89,2.57,21.78,0.16,0.19,-0.07
-12.03,2.19,21.93,-0.27,0.12,-0.01
-11.93,2.66,22.33,-0.74,0.07,0.12
-11.33,2.40,19.80,-0.96,0.01,0.32
-13.21,3.97,19.11,-0.63,-0.31,0.28
-12.26,2.89,18.12,-0.13,0.14,0.26
-10.15,3.06,18.54,0.13,-0.01,0.23
-9.25,2.34,18.54,0.17,0.03,0.30
-6.47,2.02,18.73,-0.11,-0.00,0.42
-4.63,1.49,18.42,-0.35,-0.07,0.51
-2.17,0.84,16.90,-0.27,-0.08,0.34
2.12,1.48,16.49,0.05,0.04,0.11
4.89,1.46,16.77,0.32,0.24,0.05
8.44,1.22,18.36,0.47,0.41,0.03
11.14,0.69,19.40,0.40,0.43,0.07
12.59,-0.74,20.10,0.32,0.45,0.04
15.21,-1.16,21.08,0.30,0.40,-0.06
14.96,-2.13,21.65,0.32,0.28,-0.04
14.20,-2.91,22.01,0.43,0.15,-0.11
13.24,-3.43,22.76,0.52,-0.04,-0.16
11.89,-4.07,22.29,0.35,-0.24,-0.28
10.09,-3.41,21.08,-0.13,-0.21,-0.41
8.74,-0.35,20.82,-0.58,-0.02,-0.48
7.42,2.64,21.03,-0.50,0.14,-0.37
6.34,3.61,21.91,-0.10,0.20,-0.12
5.14,2.75,23.00,0.22,0.14,0.14
3.91,1.23,24.01,0.30,-0.03,0.27
2.71,-0.44,24.04,0.15,-0.26,0.23
1.76,-0.78,22.96,-0.29,-0.45,0.07
0.91,0.85,21.24,-0.71,-0.52,-0.06
0.20,2.47,19.43,-0.70,-0.46,-0.06
-0.29,2.68,18.25,-0.38,-0.31,-0.01
-0.37,2.47,17.97,-0.07,-0.12,0.04
-0.33,2.19,17.93,0.03,0.04,0.14
-0.09,1.44,18.73,0.03,0.09,0.20
2.88,-1.18,19.04,0.10,0.38,-0.20
3.83,-0.76,18.79,0.03,0.40,-0.22
5.11,0.05,18.53,-0.01,0.48,-0.21
6.82,0.71,19.06,0.08,0.62,-0.14
8.42,0.65,20.53,0.24,0.69,-0.02
9.51,0.27,21.68,0.40,0.62,0.01
10.47,0.31,22.43,0.41,0.47,-0.00
11.17,1.14,22.70,0.24,0.31,-0.01
11.56,2.50,22.50,0.01,0.15,0.03
11.76,4.03,22.92,-0.18,0.05,0.24
11.64,4.33,23.41,-0.20,-0.07,0.53
10.95,3.51,23.10,-0.03,-0.27,0.76
9.92,2.50,22.18,0.29,-0.46,0.86
8.80,0.71,20.74,0.65,-0.56,0.86
7.26,-0.84,19.58,0.68,-0.55,0.70
6.11,-1.13,18.79,0.24,-0.45,0.56
4.29,-1.10,18.06,-0.40,-0.23,0.48
2.53,-0.42,17.91,-0.84,0.07,0.47
0.78,0.65,18.20,-0.80,0.30,0.54
0.11,1.45,19.95,-0.21,0.30,0.75
-1.60,-0.13,20.81,0.48,0.04,0.95
-3.89,-2.92,21.04,0.71,-0.30,0.89
-6.28,-4.90,19.43,0.15,-0.47,0.67
-9.46,-4.47,16.86,-0.69,-0.28,0.34
-10.68,-1.23,16.50,-0.96,0.17,0.15
-12.16,1.21,17.08,-0.41,0.56,0.18
-12.86,2.22,19.32,0.60,0.74,0.22
-12.88,1.62,22.39,1.40,0.59,0.24
-13.86,0.82,22.45,1.38,0.30,0.24
-15.02,0.36,21.45,0.77,0.19,0.25
-15.92,0.36,20.71,0.01,0.24,0.19
-15.45,2.63,20.88,-0.41,0.30,0.07
-16.12,4.77,22.93,-0.42,0.57,0.15
-15.44,4.75,22.31,-0.17,-0.09,0.15
-15.02,2.99,22.13,-0.01,0.13,0.30
-13.90,1.83,21.90,-0.19,-0.05,0.40
-14.11,1.86,21.00,-0.35,-0.32,0.47
-13.71,1.99,20.46,-0.22,-0.41,0.53
-12.98,1.05,20.02,0.13,-0.49,0.51
-11.50,-0.07,20.37,0.36,-0.54,0.43
-10.47,-1.38,19.67,0.28,-0.61,0.36
-9.15,-0.77,18.56,-0.02,-0.54,0.23
-7.54,0.88,17.54,-0.29,-0.37,0.23
-5.78,1.59,17.42,-0.19,-0.20,0.30
-4.72,1.27,16.93,0.06,-0.07,0.28
-2.60,1.06,16.88,0.32,0.08,0.17
-0.44,-0.31,17.16,0.44,0.21,0.04
2.21,-1.66,17.87,0.40,0.28,-0.14
3.09,-2.94,17.66,0.23,0.33,-0.40
4.32,-2.42,17.15,0.06,0.53,-0.77
5.68,-1.24,17.86,0.14,0.76,-1.00
6.56,0.15,19.14,0.46,0.94,-1.15
9.05,0.27,21.40,0.80,0.98,-1.20
10.33,-0.77,22.66,0.89,0.83,-1.22
11.65,-0.60,22.84,0.73,0.61,-1.24
12.38,-0.70,21.97,0.57,0.41,-1.19
12.68,-1.01,20.60,0.42,0.35,-1.13
15.53,-1.85,19.10,0.45,0.58,-1.23
38.57,2.76,21.33,0.71,1.96,-2.22
24.44,18.81,38.21,-0.41,2.27,-1.68
18.55,12.54,32.47,-0.18,0.02,1.20
13.25,1.13,23.76,0.80,-1.40,1.64
11.16,-5.75,16.97,0.94,-1.60,1.27
13.10,-8.87,15.51,0.37,-0.91,0.75
13.33,-7.50,17.87,-0.42,-0.31,0.36
13.15,-3.75,20.70,-0.71,-0.08,0.10
12.67,-1.10,21.87,-0.40,-0.20,0.09
11.91,0.37,21.67,0.12,-0.40,0.20
11.40,1.40,22.06,0.52,-0.55,0.46
11.05,1.16,23.14,0.74,-0.76,0.77
9.49,-0.76,23.24,0.87,-1.06,0.93
7.63,-3.21,23.10,0.76,-1.32,0.78
5.79,-4.22,20.78,0.19,-1.46,0.39
3.19,-2.92,17.02,-0.80,-1.15,0.01
1.62,0.71,15.66,-1.21,-0.62,-0.22
1.35,5.65,17.60,-0.76,-0.37,-0.07
-0.31,5.90,19.87,0.37,-0.66,0.35
-2.87,2.83,20.64,0.94,-1.13,0.62
-6.03,-0.18,20.03,0.62,-1.44,0.71
-8.94,-1.48,17.86,-0.18,-1.46,0.52
-11.28,-0.94,13.01,-0.91,-0.97,0.13
-11.39,1.65,11.75,-1.00,-0.03,-0.27
-10.73,4.19,15.52,-0.40,0.68,-0.33
-11.37,6.29,18.92,0.36,0.83,-0.11
-11.68,6.00,21.96,0.95,0.65,0.26
-13.61,2.59,22.65,1.26,0.32,0.52
-15.98,-1.23,22.37,1.06,0.07,0.28
-15.84,-0.93,22.69,0.27,0.36,-0.03
-15.75,2.96,20.88,-0.51,-0.14,-0.44
-15.91,6.38,19.47,-0.55,0.74,-0.26
-14.65,7.09,20.99,-0.44,0.79,-0.06
-15.05,6.38,21.98,-0.33,0.62,0.12
-14.68,6.23,22.26,-0.33,0.50,0.24
-14.05,4.53,22.23,-0.45,0.38,0.50
-14.67,2.00,20.78,-0.64,0.30,0.58
-14.49,0.32,20.47,-0.79,0.39,0.47
-13.60,-0.09,20.77,-0.77,0.39,0.31
-11.62,0.29,20.52,-0.62,0.38,0.12
-9.10,0.74,20.06,-0.42,0.34,0.03
-6.36,0.78,18.75,-0.27,0.29,0.00
-3.67,-0.40,16.74,-0.40,0.31,0.01
-0.79,-1.36,16.17,-0.81,0.56,-0.02
3.40,-1.91,16.52,-0.95,0.79,-0.17
8.75,-1.87,18.21,-0.73,0.92,-0.29
12.45,-1.69,19.89,-0.19,0.93,-0.29
14.99,-2.35,21.27,0.56,0.83,-0.38
15.68,-2.66,21.32,0.91,0.64,-0.47
14.53,-2.23,21.29,0.80,0.55,-0.44
13.95,-2.25,22.18,0.54,0.54,-0.39
12.83,-1.48,22.76,0.33,0.45,-0.38
11.66,-0.30,22.96,0.25,0.37,-0.34
10.22,0.59,22.86,0.25,0.32,-0.25
8.57,1.59,22.87,0.28,0.30,-0.19
7.53,2.73,23.02,0.32,0.21,-0.09
5.67,2.77,23.15,0.33,0.03,0.12
3.88,1.60,23.03,0.33,-0.18,0.25
2.35,0.36,21.97,0.27,-0.36,0.28
1.25,-0.56,20.81,0.15,-0.38,0.22
0.73,-1.05,20.47,0.05,-0.32,0.12
0.19,-0.66,20.24,0.01,-0.28,0.01
3.96,0.52,19.53,0.03,0.35,0.06
4.48,0.43,19.54,0.06,0.33,0.07
5.26,0.05,19.75,0.13,0.37,0.06
6.45,-0.19,20.11,0.19,0.39,-0.01
7.16,-0.65,20.15,0.12,0.39,-0.06
7.59,-0.92,20.47,-0.01,0.38,-0.10
7.69,-0.97,20.59,-0.11,0.36,-0.17
8.06,-0.87,21.87,-0.15,0.34,-0.24
8.40,-1.22,23.08,-0.14,0.19,-0.34
8.62,-1.65,23.74,-0.21,-0.02,-0.48
8.36,-1.76,24.03,-0.41,-0.28,-0.65
8.01,-0.75,24.25,-0.56,-0.53,-0.71
7.06,-0.25,24.30,-0.44,-0.81,-0.70
5.04,-0.02,23.29,-0.15,-1.06,-0.68
2.56,0.03,21.33,0.02,-1.09,-0.66
0.20,0.04,20.14,-0.01,-0.86,-0.67
-1.17,1.37,19.22,0.02,-0.53,-0.66
-2.08,2.67,20.38,0.15,-0.22,-0.41
-3.08,2.53,22.89,0.38,-0.17,-0.19
-3.67,0.81,25.02,0.42,-0.48,0.08
-5.61,-2.08,24.64,0.02,-0.82,0.12
-7.99,-3.60,23.10,-0.35,-1.11,-0.16
-10.52,-2.57,19.66,-0.74,-1.04,-0.49
-11.40,1.09,17.81,-0.96,-0.54,-0.61
-12.52,3.54,17.50,-0.38,-0.04,-0.46
-14.02,3.19,18.57,0.48,0.29,-0.39
-14.99,2.22,20.78,0.69,0.52,-0.38
-15.71,2.09,21.88,0.40,0.55,-0.40
-17.02,2.87,22.80,-0.21,0.53,-0.38
-16.94,4.56,23.73,-0.67,0.37,-0.25
-16.40,5.78,23.23,-0.76,0.02,0.02
-16.80,5.39,20.80,-0.59,-0.28,0.32
-17.53,3.91,17.92,-0.31,-0.37,0.59
-18.10,2.29,15.86,-0.04,-0.21,0.75
-16.45,1.06,15.25,0.19,-0.03,0.85
-15.11,0.37,14.95,0.28,0.05,0.96
-13.00,-0.04,14.92,0.30,0.08,1.09
-11.11,-0.20,15.01,0.31,0.07,1.24
-9.25,-0.16,15.21,0.27,0.01,1.39
-7.87,-0.95,15.19,0.21,-0.06,1.53
-6.16,-1.25,14.38,0.08,-0.08,1.55
-3.50,-1.04,14.09,0.01,0.04,1.52
-1.71,-0.71,13.70,0.04,0.24,1.53
-0.02,-0.17,14.81,0.19,0.56,1.58
2.43,-0.51,16.77,0.69,0.77,1.62
3.92,-2.02,18.13,1.15,0.90,1.58
6.51,-2.93,19.34,1.28,1.04,1.39
9.21,-2.24,20.57,1.12,1.18,1.18
10.71,-0.49,21.68,0.97,1.30,1.05
13.36,1.48,23.54,1.05,1.30,1.01
14.78,1.62,24.77,1.24,1.17,1.10
15.30,0.03,25.99,1.41,1.07,1.23
15.85,-2.96,27.99,1.54,1.00,1.19
17.48,-5.36,30.08,1.46,0.74,0.94
18.54,-6.69,31.37,1.12,0.34,0.63
19.20,-7.47,31.32,0.68,-0.15,0.27
19.32,-7.24,29.95,0.27,-0.66,-0.07
18.70,-6.70,27.81,-0.14,-1.07,-0.35
17.20,-6.08,25.37,-0.40,-1.34,-0.55
15.83,-5.12,23.23,-0.46,-1.51,-0.73
14.75,-4.38,21.26,-0.48,-1.55,-0.90
13.43,-3.30,19.82,-0.59,-1.50,-1.07
12.30,-1.48,19.08,-0.76,-1.38,-1.15
11.23,0.72,19.09,-0.86,-1.26,-1.08
9.81,2.48,19.14,-0.64,-1.22,-0.92
8.45,2.04,19.43,-0.13,-1.25,-0.81
6.74,-0.98,20.41,0.20,-1.37,-0.86
5.24,-2.92,20.17,-0.21,-1.50,-0.94
1.89,-2.80,18.12,-1.23,-1.34,-0.97
-1.35,1.11,17.11,-1.89,-0.83,-0.89
-3.17,4.66,17.63,-1.33,-0.34,-0.57
-6.24,2.87,18.19,-0.05,-0.09,-0.27
-9.07,-2.00,19.84,0.54,0.04,-0.33
-10.79,-5.30,21.73,0.01,0.04,-0.63
-12.39,-4.64,21.70,-1.10,0.02,-1.07
-13.44,0.80,20.58,-1.93,0.12,-1.25
-13.79,5.84,19.73,-1.67,0.30,-0.93
-16.99,4.77,19.53,-0.47,0.49,-0.68
-18.59,2.68,19.98,0.69,0.70,-0.92
-18.95,2.60,22.01,1.03,0.93,-1.21
-18.33,4.04,24.18,0.62,0.99,-1.28
-17.17,5.78,25.34,-0.02,0.77,-1.11
-16.86,7.43,24.92,-0.48,0.43,-0.82
-17.23,7.76,23.02,-0.50,0.11,-0.56
-16.18,6.22,20.50,-0.11,-0.07,-0.32
-16.03,3.68,17.67,0.23,-0.14,-0.19
-16.42,1.63,16.24,0.22,0.01,-0.13
-16.14,2.18,15.98,0.05,0.23,-0.10
-16.42,2.89,15.76,0.03,0.40,-0.01
-16.45,3.62,15.33,0.28,0.53,0.07
-15.24,3.41,15.85,0.76,0.63,0.14
-11.28,1.17,16.18,1.11,0.63,0.13
-6.97,-0.52,16.65,0.84,0.56,0.10
-0.57,-0.91,17.79,-0.02,0.47,0.28
3.62,-0.11,18.72,-0.60,0.28,0.40
6.83,0.74,19.26,-0.60,0.01,0.38
10.45,1.94,18.80,-0.41,-0.16,0.40
13.59,3.10,18.08,-0.27,-0.22,0.57
14.78,4.08,18.23,-0.04,-0.10,0.92
15.11,2.80,19.11,0.55,0.18,1.27
15.63,-0.49,20.99,1.24,0.41,1.37
15.58,-4.74,23.21,1.39,0.48,1.28
14.89,-7.50,24.56,0.91,0.33,0.94
13.49,-7.55,24.94,0.27,0.11,0.39
12.32,-4.96,24.72,-0.22,-0.13,-0.09
9.64,-2.18,23.80,-0.43,-0.34,-0.29
7.45,-0.34,22.34,-0.30,-0.43,-0.37
5.51,0.86,21.35,-0.11,-0.37,-0.30
3.73,0.71,21.45,0.12,-0.26,-0.20
2.43,0.01,22.35,0.25,-0.22,-0.21
1.42,0.28,22.59,0.12,-0.27,-0.28
-0.05,0.99,22.73,-0.14,-0.33,-0.29
-1.30,2.12,22.20,-0.31,-0.40,-0.29
-2.19,3.41,21.35,-0.23,-0.41,-0.23
-2.28,3.88,20.88,-0.01,-0.38,-0.09
-1.95,3.47,20.35,0.17,-0.35,0.08
-1.52,2.66,20.17,0.22,-0.34,0.18
-1.14,1.95,19.74,0.15,-0.38,0.23
-0.91,1.66,19.17,0.06,-0.37,0.25
-0.54,1.54,18.49,0.04,-0.34,0.25
6.69,0.16,21.11,0.27,0.21,0.12
7.58,0.48,21.48,0.35,0.17,0.12
8.01,0.83,21.32,0.38,0.09,0.15
8.27,1.50,21.54,0.39,0.04,0.22
8.77,2.02,22.44,0.39,-0.02,0.33
8.98,1.88,22.93,0.33,-0.16,0.43
8.67,1.64,22.65,0.19,-0.34,0.51
8.45,1.32,21.67,0.04,-0.47,0.56
7.80,1.38,20.81,-0.15,-0.50,0.61
7.42,2.06,21.06,-0.26,-0.51,0.69
6.40,1.93,21.23,-0.19,-0.66,0.81
4.40,1.18,19.80,-0.09,-0.80,0.86
2.63,0.78,18.20,0.01,-0.73,0.85
0.38,-0.54,16.70,0.11,-0.52,0.82
-1.63,-1.48,16.80,0.16,-0.24,0.74
-3.10,-2.76,18.10,0.04,-0.10,0.58
-4.43,-1.94,19.85,-0.36,-0.12,0.41
-5.78,-0.20,20.05,-0.74,-0.23,0.36
-7.93,1.78,19.91,-0.72,-0.31,0.40
-9.44,2.56,19.46,-0.31,-0.35,0.46
-11.33,1.80,18.82,0.31,-0.30,0.41
-12.31,1.16,18.84,0.70,-0.19,0.25
-13.25,0.65,19.15,0.78,-0.09,0.06
-13.42,1.78,20.40,0.46,-0.04,-0.07
-14.18,3.91,20.27,-0.05,-0.04,-0.03
-14.55,6.26,19.99,-0.22,-0.02,0.13
-14.35,6.76,19.74,0.00,-0.04,0.36
-14.81,5.70,18.98,0.29,-0.07,0.46
-13.55,4.69,18.33,0.50,-0.01,0.44
-13.41,4.14,18.42,0.52,0.31,0.41
-12.02,3.61,18.38,0.36,-0.06,0.58
-11.95,2.84,18.49,0.22,0.30,0.59
-11.09,2.74,18.92,0.13,0.33,0.56
-9.96,3.67,20.21,0.10,0.17,0.61
-9.82,3.77,19.78,0.20,-0.05,0.67
-9.29,3.49,19.09,0.40,-0.14,0.61
-8.21,1.94,17.62,0.51,-0.01,0.57
-6.59,-0.01,17.53,0.40,0.22,0.43
-5.08,-0.17,17.99,0.10,0.40,0.25
-2.68,0.48,19.05,-0.04,0.45,0.11
-0.79,0.21,20.44,0.05,0.40,0.01
0.58,-0.84,22.01,0.28,0.26,-0.19
2.10,-1.22,22.28,0.47,0.08,-0.48
3.31,-1.02,21.23,0.67,-0.01,-0.80
5.33,-1.17,19.68,0.95,0.05,-1.04
6.86,-0.54,18.97,1.09,0.18,-1.24
9.45,1.30,19.59,1.22,0.32,-1.25
11.21,1.91,20.98,1.25,0.38,-1.09
12.77,1.46,22.54,1.20,0.38,-0.86
14.01,0.70,23.93,0.99,0.35,-0.62
14.72,-0.30,24.62,0.73,0.27,-0.43
15.43,-1.19,25.29,0.48,0.20,-0.29
15.39,-1.81,25.54,0.12,0.20,-0.25
15.43,-1.27,25.22,-0.22,0.27,-0.29
15.81,-0.66,25.33,-0.47,0.36,-0.40
15.85,1.74,24.78,-0.51,0.41,-0.50
16.58,3.82,24.96,-0.30,0.32,-0.30
15.88,3.94,24.71,-0.17,0.03,0.08
15.80,2.71,23.82,-0.39,-0.06,0.43
14.07,2.40,22.38,-0.68,-0.40,0.65
13.14,2.47,21.25,-0.98,-0.44,0.86
12.07,2.62,19.96,-1.01,-0.38,0.91
11.19,2.15,19.19,-0.81,-0.23,0.87
10.21,1.09,19.05,-0.57,-0.08,0.81
9.11,1.60,19.51,-0.37,-0.01,0.73
8.64,2.80,20.85,-0.29,-0.09,0.85
7.71,2.08,21.23,-0.49,-0.36,1.19
5.05,0.16,19.88,-0.88,-0.56,1.36
2.91,-1.26,17.74,-1.11,-0.60,1.24
0.13,-1.83,15.38,-1.15,-0.37,0.86
-2.47,-1.91,14.21,-0.85,0.03,0.34
-5.09,-1.37,14.25,-0.47,0.45,-0.18
-5.85,2.01,17.96,-0.35,0.64,-0.30
-6.05,3.62,20.85,-0.20,0.27,-0.06
-7.78,1.60,19.86,-0.21,-0.29,0.18
-10.36,0.02,16.78,-0.52,-0.47,0.10
-12.00,-0.37,15.20,-0.66,-0.29,-0.12
-14.99,-0.27,14.57,-0.67,0.06,-0.41
-16.31,0.19,16.48,-0.39,0.47,-0.78
-16.32,3.24,19.81,-0.04,0.49,-0.95
-15.66,4.67,21.68,0.33,0.14,-0.73
-16.48,3.80,20.45,0.45,-0.17,-0.52
-16.48,3.37,19.14,0.36,-0.28,-0.36
-16.96,2.82,17.86,0.19,-0.26,-0.25
-16.53,3.00,16.93,0.09,-0.10,-0.25
-15.62,3.20,17.04,0.17,0.08,-0.26
-14.90,3.12,16.68,0.17,0.22,-0.26
-13.54,3.89,18.89,0.09,0.11,-0.12
-14.70,5.21,19.66,0.26,0.07,-0.05
-13.55,5.12,19.33,0.43,0.19,0.11
-12.19,3.31,18.83,0.46,0.08,0.12
-11.05,1.11,18.32,0.29,0.08,-0.00
-9.00,0.97,18.38,-0.10,0.14,-0.25
-5.38,2.05,18.64,-0.23,0.23,-0.44
-1.76,1.98,19.60,0.03,0.19,-0.57
1.70,1.85,20.71,0.41,0.06,-0.60
4.03,-0.08,20.93,0.78,-0.11,-0.73
7.20,-1.55,19.35,0.92,-0.27,-1.07
10.30,-0.55,17.17,0.98,-0.27,-1.41
13.29,2.36,16.90,1.12,-0.11,-1.57
16.36,3.87,19.74,1.24,0.05,-1.36
17.00,3.12,22.05,1.05,-0.00,-1.10
17.51,3.78,23.56,0.71,-0.11,-0.83
17.17,3.76,23.18,0.55,-0.18,-0.51
15.69,2.96,22.06,0.61,-0.14,-0.29
14.16,1.88,22.07,0.69,0.05,-0.14
11.98,-0.42,22.75,0.58,0.19,-0.08
9.04,-0.74,22.52,0.09,0.34,-0.15
7.02,1.17,23.43,-0.37,0.44,-0.10
4.81,2.21,23.35,-0.50,0.36,0.02
2.86,2.41,22.60,-0.44,0.24,0.09
1.48,2.29,21.90,-0.37,0.12,0.12
0.37,2.38,20.54,-0.44,0.00,0.15
-0.80,2.76,19.57,-0.50,-0.02,0.24
-1.74,2.83,19.16,-0.34,-0.02,0.30
-2.69,2.68,18.72,-0.13,-0.01,0.26
-2.23,2.41,19.08,0.07,0.02,0.25
-2.28,1.18,19.31,0.10,-0.03,0.21
-1.83,0.98,19.15,-0.02,-0.06,0.08
-1.80,1.37,19.17,-0.10,-0.09,0.04
9.39,-0.08,23.29,-0.13,-0.26,0.22
9.17,-0.15,22.96,-0.22,-0.47,0.17
8.24,-0.24,22.29,-0.32,-0.68,0.17
7.15,0.17,21.23,-0.44,-0.79,0.19
5.57,0.51,20.05,-0.44,-0.87,0.21
3.94,0.62,18.38,-0.24,-0.76,0.29
1.96,0.98,17.79,0.11,-0.61,0.35
0.70,0.96,18.26,0.34,-0.43,0.43
-0.91,0.65,19.05,0.44,-0.42,0.55
-2.71,0.63,19.52,0.31,-0.46,0.63
-5.17,0.28,19.74,0.18,-0.55,0.75
-7.61,-1.52,19.11,0.18,-0.64,0.72
-9.31,-2.96,19.01,0.13,-0.57,0.46
-10.01,-2.37,19.19,-0.12,-0.38,0.08
-9.66,0.34,18.99,-0.24,-0.11,-0.12
-9.87,2.39,19.60,0.14,0.09,-0.07
-10.55,2.44,20.29,0.73,0.14,0.01
-11.58,1.41,21.11,1.09,0.13,0.07
-12.30,-0.27,21.64,1.12,0.08,0.02
-12.55,-0.49,21.64,0.78,0.03,-0.08
-12.75,0.06,20.99,0.35,0.02,-0.14
-12.81,0.90,20.30,-0.02,0.04,-0.15
-12.80,2.19,19.20,-0.20,0.12,-0.14
-11.89,3.44,18.61,-0.12,0.19,-0.06
-11.39,3.50,18.62,0.07,0.20,0.13
-11.66,3.63,18.34,0.25,0.21,0.31
-10.98,3.12,18.97,0.32,0.27,0.52
-11.73,3.18,19.28,0.46,0.03,0.63
-10.11,0.97,18.39,0.34,0.19,0.65
-9.47,-0.28,17.80,0.09,0.12,0.54
-8.16,-0.26,17.47,-0.20,0.30,0.42
-6.49,0.77,18.06,-0.27,0.40,0.37
-5.05,1.09,18.55,-0.01,0.41,0.33
-3.24,0.67,19.54,0.46,0.36,0.26
-1.01,-1.07,20.05,0.73,0.30,0.15
0.10,-1.76,19.31,0.69,0.34,-0.12
2.57,-1.69,19.05,0.71,0.50,-0.41
4.98,-0.92,18.45,0.78,0.62,-0.70
7.32,0.81,19.27,0.94,0.71,-0.77
9.31,0.60,20.56,1.15,0.70,-0.72
11.12,0.11,20.84,1.28,0.62,-0.78
13.60,0.61,21.15,1.38,0.61,-0.83
15.57,1.01,21.19,1.52,0.61,-0.78
17.31,1.57,21.53,1.62,0.62,-0.72
18.18,1.75,22.70,1.61,0.59,-0.54
17.96,0.38,24.35,1.33,0.51,-0.32
17.72,-0.16,25.33,0.78,0.35,-0.25
17.83,-0.01,26.04,0.19,0.20,-0.15
17.46,0.09,25.84,-0.23,0.05,-0.08
17.10,0.83,25.02,-0.44,-0.06,-0.01
16.37,1.21,24.07,-0.41,-0.16,0.09
15.38,1.54,22.47,-0.20,-0.23,0.16
13.76,2.36,21.69,0.07,-0.14,0.22
12.76,2.52,21.80,0.27,-0.02,0.33
11.77,3.45,22.86,0.59,-0.21,0.43
10.95,2.58,23.69,0.58,-0.41,0.59
9.71,1.55,23.06,0.12,-0.70,0.65
8.32,1.74,20.88,-0.61,-0.78,0.70
6.85,2.07,19.51,-1.03,-0.64,0.74
5.58,2.90,19.46,-0.99,-0.47,0.82
3.85,2.75,20.25,-0.54,-0.43,0.91
0.88,0.73,19.96,0.22,-0.47,0.78
-1.21,-1.48,20.30,0.74,-0.51,0.43
-2.51,-2.79,19.70,0.40,-0.53,0.05
-4.06,-0.81,18.43,-0.70,-0.44,-0.09
-6.21,2.89,18.36,-1.58,-0.27,0.06
-8.43,6.24,19.01,-1.36,-0.28,0.36
-10.73,5.81,18.73,-0.51,-0.37,0.57
-13.67,3.49,18.01,0.65,-0.35,0.34
-14.47,1.36,18.97,1.40,-0.24,-0.18
-15.16,-0.16,19.98,1.25,-0.22,-0.60
-16.26,2.26,20.12,0.18,-0.05,-0.72
-17.27,4.68,19.42,-0.39,0.13,-0.63
-17.82,5.55,19.20,-0.28,0.22,-0.62
-17.21,6.23,19.05,0.06,0.27,-0.59
-16.12,6.25,18.69,0.32,0.22,-0.41
-15.66,4.57,17.64,0.28,0.19,-0.18
-15.53,2.60,16.45,-0.10,0.30,-0.09
-13.81,2.37,16.70,-0.55,0.49,-0.09
-13.49,3.67,18.54,-0.81,0.93,-0.08
-11.95,4.16,17.95,-0.66,0.25,0.17
-11.60,3.38,17.18,-0.55,0.77,0.27
-10.31,3.11,17.43,-0.46,0.63,0.39
-8.49,1.03,18.39,-0.36,0.66,0.47
-6.60,-1.75,18.32,-0.46,0.64,0.35
-3.49,-2.35,18.83,-0.65,0.61,0.00
1.02,-0.50,19.52,-0.85,0.56,-0.22
4.07,1.39,19.57,-0.74,0.50,-0.31
7.32,3.25,19.90,-0.31,0.46,-0.30
9.68,2.52,21.05,0.10,0.50,-0.22
11.27,0.91,22.42,0.34,0.48,-0.27
12.46,0.54,23.25,0.35,0.41,-0.37
13.35,-0.14,23.71,0.33,0.26,-0.46
14.00,0.57,22.80,0.27,0.09,-0.55
14.42,2.81,22.19,0.18,0.01,-0.35
14.29,2.50,22.18,0.24,-0.02,0.02
12.72,0.69,21.97,0.32,-0.05,0.24
10.76,-0.42,22.28,0.27,-0.01,0.32
8.63,-1.82,22.48,0.07,-0.01,0.32
6.75,-2.87,22.81,-0.24,-0.06,0.19
5.22,-1.95,22.51,-0.63,-0.15,0.02
3.77,-0.36,21.79,-0.83,-0.22,-0.00
2.06,0.74,21.00,-0.72,-0.26,-0.01
0.85,0.55,20.28,-0.47,-0.26,-0.02
-0.29,0.12,19.74,-0.44,-0.21,-0.06
-0.78,0.86,18.96,-0.55,-0.12,-0.10
-1.07,1.72,18.20,-0.45,-0.00,-0.12
-1.05,2.31,18.04,-0.21,0.09,-0.08
-1.22,1.99,18.09,0.00,0.17,-0.00
-1.46,0.76,18.57,0.17,0.23,0.02
-1.15,0.56,19.68,0.13,0.22,0.01
-0.88,0.25,20.45,0.01,0.11,0.07
-1.28,-0.49,20.48,-0.08,-0.00,0.05
-1.14,-0.21,20.30,-0.21,-0.04,-0.04
-0.71,0.60,20.48,-0.24,-0.05,-0.06
-0.54,1.22,20.37,-0.14,-0.07,-0.03
-0.66,1.18,19.94,0.02,-0.06,0.00
-0.53,0.83,19.90,0.15,-0.01,-0.01
-0.16,0.77,20.37,0.18,0.03,-0.01
0.08,0.66,20.91,0.09,0.02,0.01
7.02,-0.05,20.58,0.03,0.21,-0.20
7.91,0.27,20.65,0.17,0.25,-0.16
7.96,0.47,20.91,0.27,0.32,-0.14
8.56,1.16,21.76,0.30,0.41,-0.16
9.15,1.90,23.07,0.23,0.48,-0.06
10.23,2.45,24.58,0.13,0.42,0.05
10.81,2.53,25.23,0.08,0.21,0.19
10.90,2.04,25.09,-0.00,-0.09,0.32
10.26,1.45,23.86,-0.19,-0.37,0.38
9.34,1.39,22.60,-0.43,-0.54,0.41
8.42,1.43,21.27,-0.55,-0.60,0.46
7.08,1.39,19.76,-0.47,-0.59,0.48
5.87,0.99,18.30,-0.30,-0.46,0.41
4.89,1.42,17.65,-0.20,-0.29,0.37
3.38,1.88,16.99,-0.21,-0.14,0.42
1.96,3.01,17.07,-0.25,-0.01,0.51
0.96,4.13,18.46,-0.20,0.02,0.78
-0.58,3.00,19.77,-0.14,-0.10,1.07
-3.57,-0.64,20.06,-0.28,-0.22,1.10
-5.30,-2.67,19.08,-0.51,-0.21,0.67
-6.37,-1.47,17.97,-0.84,-0.01,0.23
-6.07,3.80,19.34,-0.88,0.30,0.14
-6.75,5.07,20.47,-0.36,0.25,0.38
-9.32,3.58,20.01,0.14,0.13,0.51
-11.48,1.67,19.82,0.36,0.14,0.49
-12.84,0.39,20.26,0.43,0.21,0.25
-13.16,0.92,20.60,0.32,0.25,-0.05
-13.82,2.38,20.16,0.06,0.29,-0.23
-13.98,4.60,19.77,-0.04,0.36,-0.28
-14.46,6.45,19.61,0.11,0.37,-0.17
-15.27,6.68,19.54,0.38,0.33,0.02
-14.84,5.67,20.72,0.54,0.45,0.25
-14.70,4.28,19.89,0.47,-0.26,0.38
-14.39,1.60,18.35,0.05,0.20,0.44
-13.19,1.81,18.61,-0.41,0.26,0.39
-12.56,2.16,19.57,-0.68,0.28,0.44
-11.96,2.67,20.92,-0.49,0.07,0.45
-10.87,2.75,22.05,-0.22,-0.21,0.49
-11.14,1.67,20.95,-0.03,-0.44,0.52
-10.29,1.21,19.27,-0.01,-0.35,0.45
-9.38,0.81,18.55,-0.03,-0.16,0.35
-7.99,1.16,18.44,-0.07,-0.03,0.21
-5.81,1.87,19.22,-0.06,-0.07,0.15
-4.93,0.98,18.54,-0.00,-0.22,0.10
-3.16,0.74,17.86,-0.04,-0.25,-0.08
-1.74,0.96,16.83,0.01,-0.18,-0.25
-0.43,0.52,15.79,0.28,-0.06,-0.49
1.10,1.01,14.56,0.62,0.18,-0.82
3.57,1.36,15.63,0.92,0.36,-0.97
5.26,0.03,16.12,1.04,0.35,-1.09
7.03,-0.54,17.25,0.92,0.28,-1.29
8.83,-0.57,18.95,0.69,0.27,-1.47
10.80,0.51,20.55,0.54,0.19,-1.58
12.65,1.50,21.01,0.55,0.12,-1.58
14.97,2.30,21.37,0.79,0.11,-1.48
17.31,2.45,22.06,1.15,0.09,-1.30
18.71,1.75,22.89,1.31,0.03,-1.02
19.31,1.29,23.46,1.11,0.01,-0.72
19.49,0.78,24.31,0.80,0.01,-0.43
19.11,-0.36,25.00,0.55,-0.03,-0.23
18.43,-0.14,24.77,0.28,-0.06,-0.20
17.95,1.28,23.72,0.05,-0.03,-0.09
17.51,2.77,22.97,-0.04,-0.03,0.15
16.44,2.98,22.81,0.04,-0.09,0.42
15.36,2.83,23.17,0.08,-0.21,0.63
14.01,3.22,22.93,-0.04,-0.36,0.76
12.89,3.54,22.36,-0.17,-0.45,0.89
11.72,3.31,21.18,-0.22,-0.50,0.91
10.47,3.14,19.81,-0.18,-0.44,0.86
8.75,3.19,19.09,-0.05,-0.22,0.74
7.89,3.43,21.11,0.17,-0.09,0.66
7.13,3.84,23.76,0.22,-0.24,0.76
4.29,1.38,22.70,0.06,-0.53,0.90
1.59,-1.17,20.76,-0.27,-0.52,0.72
-0.84,-3.05,19.63,-0.74,-0.37,0.33
-3.11,-3.17,17.85,-1.17,-0.16,-0.22
-6.63,-2.24,15.25,-1.31,0.15,-0.64
-9.20,1.91,16.97,-1.00,0.46,-0.80
-8.89,4.20,19.83,-0.16,0.34,-0.50
-10.97,1.58,20.72,0.68,-0.18,-0.27
-11.89,-0.90,20.01,0.65,-0.47,-0.31
-14.10,-1.13,17.41,-0.20,-0.39,-0.43
-15.07,0.66,16.90,-1.07,-0.08,-0.45
-17.25,3.04,15.98,-1.31,0.22,-0.42
-17.59,5.98,17.60,-0.74,0.45,-0.40
-16.95,6.68,19.20,-0.02,0.39,-0.30
-16.65,5.38,20.17,0.35,0.24,-0.13
-16.51,3.53,20.57,0.19,0.14,-0.08
-15.52,3.56,20.16,-0.31,0.07,-0.11
-15.58,4.98,20.32,-0.69,0.35,-0.09
-14.45,5.70,17.82,-0.76,-0.31,0.03
-15.08,5.10,16.39,-0.52,0.39,0.12
-13.90,5.12,17.27,-0.25,0.44,0.16
-13.74,4.19,17.64,-0.02,0.37,0.23
-13.05,3.15,17.63,-0.08,0.24,0.23
-12.09,2.18,17.14,-0.26,0.12,0.18
-10.98,1.36,16.26,-0.45,0.12,0.04
-8.07,1.00,16.21,-0.50,0.25,-0.16
-5.06,1.87,16.42,-0.47,0.33,-0.25
-1.86,1.96,16.94,-0.20,0.33,-0.32
0.91,0.15,16.78,0.16,0.32,-0.45
3.47,-0.11,17.87,0.24,0.38,-0.72
6.48,-0.19,19.24,0.13,0.42,-0.91
9.79,0.91,20.31,0.02,0.46,-1.10
13.80,2.85,21.61,0.23,0.43,-1.22
16.26,4.92,22.32,0.54,0.33,-1.11
17.83,5.44,23.59,0.65,0.29,-0.69
18.37,3.71,24.76,0.61,0.13,-0.13
17.29,0.86,24.60,0.47,0.00,0.26
15.15,-1.50,24.18,0.30,0.03,0.45
13.33,-3.23,24.97,0.17,0.14,0.41
11.22,-3.35,25.59,0.06,0.18,0.29
9.06,-2.62,26.31,-0.08,0.14,0.23
6.59,-1.94,26.37,-0.15,-0.03,0.21
4.16,-1.44,25.15,-0.13,-0.26,0.12
1.84,0.10,23.38,-0.06,-0.44,0.02
0.28,1.66,21.22,0.07,-0.52,-0.02
-1.15,2.62,19.45,0.13,-0.50,-0.05
-2.30,4.14,18.29,0.04,-0.38,-0.05
-2.57,5.42,18.25,-0.03,-0.27,0.04
8.19,-3.55,20.56,-0.71,0.57,-0.08
8.13,-1.87,21.82,-0.70,0.66,-0.07
7.97,-0.98,22.72,-0.47,0.62,-0.08
7.85,0.17,23.52,-0.28,0.53,-0.07
7.43,1.27,23.84,-0.06,0.36,0.03
7.35,1.95,24.30,0.19,0.18,0.14
7.24,2.56,24.62,0.29,-0.02,0.25
5.99,3.59,23.92,0.25,-0.28,0.40
3.15,3.57,20.63,0.25,-0.35,0.56
-0.21,1.78,18.69,0.05,-0.07,0.71
-1.95,1.27,19.43,-0.59,0.19,0.84
-3.17,2.89,21.09,-0.71,0.17,0.92
-4.50,4.66,21.11,-0.14,-0.11,1.03
-5.65,4.77,20.94,0.75,-0.35,1.16
-7.44,2.30,20.07,1.19,-0.56,1.34
-9.35,0.96,19.81,1.12,-0.61,1.36
-11.84,-0.03,19.15,0.63,-0.67,1.40
-12.97,-1.59,18.63,0.28,-0.61,1.27
-13.56,-2.24,18.10,-0.08,-0.60,0.98
-13.65,-1.63,16.38,-0.36,-0.47,0.67
-13.41,-0.37,15.64,-0.32,-0.21,0.40
-13.71,1.77,16.46,-0.14,-0.04,0.28
-13.94,1.03,16.41,-0.11,0.00,0.38
-14.27,-0.75,16.74,-0.07,0.04,0.19
-15.05,-1.56,16.92,-0.26,0.05,-0.08
-15.34,-1.30,17.58,-0.76,0.16,-0.31
-15.47,-0.44,18.87,-1.06,0.17,-0.57
-15.97,0.93,19.30,-0.84,0.17,-0.79
-15.00,0.74,20.47,-0.49,0.09,-0.91
-14.88,-0.65,20.68,-0.38,-0.20,-1.12
-16.36,-0.32,19.08,-0.46,-0.48,-1.37
-18.13,0.48,17.50,-0.67,-0.54,-1.52
-19.14,1.15,16.37,-0.77,-0.42,-1.59
-17.94,2.90,16.42,-0.87,-0.24,-1.60
-15.96,4.75,15.83,-0.43,-0.16,-1.61
-13.03,6.32,16.13,0.30,-0.06,-1.54
-11.01,6.40,16.47,0.83,-0.14,-1.37
-9.87,5.67,15.54,1.16,-0.25,-1.13
-8.73,3.16,14.82,1.10,-0.15,-0.91
-7.64,1.38,15.46,0.65,0.04,-0.81
-4.76,0.79,16.72,0.15,0.26,-0.77
-1.54,2.45,18.16,-0.03,0.42,-0.72
2.31,3.93,19.86,0.17,0.39,-0.45
4.96,3.51,20.57,0.60,0.20,-0.13
5.87,2.51,19.27,0.94,0.07,0.22
6.81,-0.19,19.19,1.20,0.13,0.38
6.67,-0.97,19.09,0.95,0.33,0.50
8.43,-1.28,21.06,0.49,0.71,0.57
10.33,0.07,23.53,0.06,0.92,0.60
12.26,1.49,25.66,-0.08,1.02,0.72
14.23,2.00,27.41,0.02,0.95,0.88
15.49,1.76,28.40,0.19,0.67,1.02
15.54,1.05,28.74,0.41,0.29,1.06
14.90,0.57,28.10,0.54,-0.07,1.10
14.41,-0.57,26.51,0.46,-0.30,1.14
14.95,-1.87,24.99,0.42,-0.30,1.07
15.80,-3.40,23.83,0.47,-0.18,0.95
16.77,-4.80,23.57,0.50,-0.02,0.79
17.49,-5.69,23.65,0.53,0.03,0.59
17.16,-5.99,23.98,0.57,-0.09,0.32
15.97,-5.69,24.67,0.62,-0.34,0.04
14.83,-5.31,24.07,0.70,-0.57,-0.21
14.27,-5.28,23.13,0.73,-0.71,-0.43
13.82,-4.98,21.57,0.61,-0.67,-0.59
13.37,-3.90,20.58,0.44,-0.50,-0.70
11.88,-1.75,19.73,0.32,-0.34,-0.76
10.17,1.39,20.68,0.35,0.02,-0.66
9.21,3.86,21.97,0.22,0.11,-0.33
8.19,2.88,23.86,0.28,0.11,-0.07
7.43,1.47,26.04,0.24,-0.15,-0.09
4.54,2.10,24.85,-0.16,-0.55,-0.17
1.81,2.73,22.96,-0.35,-0.80,-0.31
-1.65,3.55,20.60,-0.38,-0.99,-0.45
-4.89,6.18,19.54,-0.54,-0.92,-0.32
-7.60,6.90,18.57,-0.84,-0.91,0.16
-9.75,6.45,17.27,-0.79,-0.90,0.48
-11.80,5.58,16.97,-0.62,-0.78,0.77
-12.46,3.70,17.88,-0.31,-0.73,0.87
-13.51,2.08,17.64,0.33,-0.86,0.66
-14.52,0.39,16.95,1.09,-0.84,0.31
-15.53,-0.57,17.37,1.23,-0.76,-0.05
-18.31,0.70,16.62,0.55,-0.65,-0.17
-19.90,3.34,17.02,-0.26,-0.33,0.04
-20.56,4.10,17.95,-0.59,-0.13,0.41
-19.99,0.72,18.79,-0.49,0.11,0.62
-18.53,-2.73,20.73,-0.59,0.18,0.36
-19.08,-3.63,22.07,-0.34,-0.00,0.01
-18.86,-3.60,20.90,-0.59,-0.13,-0.18
-19.01,-3.62,20.00,-0.46,-0.32,-0.49
-19.67,-3.70,19.20,-0.31,-0.41,-0.86
-20.68,-2.70,18.23,-0.58,-0.46,-1.12
-20.68,-0.88,17.74,-0.89,-0.32,-1.28
-19.90,3.27,17.41,-0.88,-0.27,-1.31
-17.43,6.25,16.49,-0.33,-0.23,-1.20
-12.96,6.50,16.42,0.51,-0.31,-1.16
-9.26,5.80,15.18,1.05,-0.53,-1.23
-5.83,4.64,14.14,1.08,-0.47,-1.20
-3.25,4.79,13.86,0.62,-0.25,-1.08
-0.27,5.72,14.58,0.23,0.07,-0.86
3.11,6.98,15.33,0.12,0.31,-0.61
6.79,7.60,15.17,0.57,0.58,-0.25
11.40,5.94,15.86,1.08,0.84,0.15
15.68,0.25,18.75,1.38,0.96,0.32
18.36,-3.84,22.86,0.95,0.87,0.13
16.95,-2.43,24.26,-0.10,0.70,-0.06
15.12,1.58,25.84,-0.84,0.78,0.01
15.00,5.38,27.05,-0.84,0.79,0.23
15.73,6.07,27.87,-0.09,0.58,0.52
15.69,3.63,28.20,0.57,0.14,0.72
13.31,1.08,26.30,0.89,-0.25,0.77
10.91,-1.17,24.78,0.82,-0.42,0.74
7.81,-1.64,23.24,0.45,-0.45,0.63
4.88,-0.76,22.22,0.14,-0.32,0.54
3.48,-0.94,22.13,0.04,-0.21,0.46
2.27,-0.68,21.86,0.12,-0.21,0.30
0.94,-0.34,20.95,0.25,-0.23,0.20
0.63,-1.22,20.67,0.42,-0.22,0.09
0.38,-1.38,20.01,0.34,-0.25,-0.06
-0.61,-0.67,18.84,0.07,-0.24,-0.17
-0.85,0.18,17.96,-0.16,-0.11,-0.21